reward_today,future_reward,delay,trials.thisRepN,trials.thisTrialN,trials.thisN,trials.thisIndex,thisRow.t,notes,trial.started,fixation.started,text.started,key_resp.started,fixation.stopped,trial.stopped,key_resp.keys,key_resp.rt,key_resp.duration,participant,session,date,expName,psychopyVersion,frameRate,expStart,
78,80,162,0,0,0,6,0.04969429993070662,,0.00685499981045723,0.04969429993070662,1.0019582998938859,1.0019582998938859,1.0519284999463707,2.958115299930796,l,1.9354926000814885,None,127943,001,2024-11-15_11h33.05.297,delay discounting experiment,2024.1.5,None,2024-11-15 11h33.09.570532 +0530,
40,55,62,0,1,1,3,2.9681235998868942,,2.959206599975005,2.9681235998868942,3.968455399852246,3.968455399852246,3.968455399852246,4.603172399802133,l,0.6258465999271721,None,127943,001,2024-11-15_11h33.05.297,delay discounting experiment,2024.1.5,None,2024-11-15 11h33.09.570532 +0530,
49,60,89,0,2,2,4,4.618082999950275,,4.604041500017047,4.618082999950275,5.618230999913067,5.618230999913067,5.618230999913067,6.003652699990198,t,0.38172280020080507,None,127943,001,2024-11-15_11h33.05.297,delay discounting experiment,2024.1.5,None,2024-11-15 11h33.09.570532 +0530,
67,75,119,0,3,3,5,6.017868899973109,,6.004745899932459,6.017868899973109,7.018243699800223,7.018243699800223,7.018243699800223,7.336835299851373,l,0.30072280019521713,None,127943,001,2024-11-15_11h33.05.297,delay discounting experiment,2024.1.5,None,2024-11-15 11h33.09.570532 +0530,
15,35,13,0,4,4,1,7.350873199990019,,7.337861699983478,7.350873199990019,8.350860999897122,8.350860999897122,8.350860999897122,8.636757500004023,t,0.2831729000899941,None,127943,001,2024-11-15_11h33.05.297,delay discounting experiment,2024.1.5,None,2024-11-15 11h33.09.570532 +0530,
11,30,7,0,5,5,0,8.650866899872199,,8.637664799811319,8.650866899872199,9.650740299839526,9.650740299839526,9.650740299839526,9.952668699901551,t,0.28742729988880455,None,127943,001,2024-11-15_11h33.05.297,delay discounting experiment,2024.1.5,None,2024-11-15 11h33.09.570532 +0530,
27,50,21,0,6,6,2,9.967335999943316,,9.95368259982206,9.967335999943316,10.967473999829963,10.967473999829963,10.967473999829963,11.218428699998185,l,0.24619219987653196,None,127943,001,2024-11-15_11h33.05.297,delay discounting experiment,2024.1.5,None,2024-11-15 11h33.09.570532 +0530,
15,35,13,1,0,7,1,11.233994199894369,,11.219243899919093,11.233994199894369,12.233831799821928,12.233831799821928,12.233831799821928,12.552370099816471,t,0.30202169995754957,None,127943,001,2024-11-15_11h33.05.297,delay discounting experiment,2024.1.5,None,2024-11-15 11h33.09.570532 +0530,
67,75,119,1,1,8,5,12.56704349978827,,12.553488299949095,12.56704349978827,13.567135599907488,13.567135599907488,13.567135599907488,13.918064599856734,t,0.3467300001066178,None,127943,001,2024-11-15_11h33.05.297,delay discounting experiment,2024.1.5,None,2024-11-15 11h33.09.570532 +0530,
27,50,21,1,2,9,2,13.933539799880236,,13.918850400019437,13.933539799880236,14.9336857998278,14.9336857998278,14.9336857998278,15.251880299998447,t,0.30451579997316003,None,127943,001,2024-11-15_11h33.05.297,delay discounting experiment,2024.1.5,None,2024-11-15 11h33.09.570532 +0530,
11,30,7,1,3,10,0,15.266720299841836,,15.253540099831298,15.266720299841836,16.26689389999956,16.26689389999956,16.26689389999956,16.58523550000973,l,0.303079399978742,None,127943,001,2024-11-15_11h33.05.297,delay discounting experiment,2024.1.5,None,2024-11-15 11h33.09.570532 +0530,
49,60,89,1,4,11,4,16.599723999854177,,16.58629669994116,16.599723999854177,17.599857799941674,17.599857799941674,17.599857799941674,17.83491859980859,l,0.23098929994739592,None,127943,001,2024-11-15_11h33.05.297,delay discounting experiment,2024.1.5,None,2024-11-15 11h33.09.570532 +0530,
40,55,62,1,5,12,3,17.849666299996898,,17.835833999793977,17.849666299996898,18.849610099801794,18.849610099801794,18.849610099801794,19.268491399940103,t,0.401431999867782,None,127943,001,2024-11-15_11h33.05.297,delay discounting experiment,2024.1.5,None,2024-11-15 11h33.09.570532 +0530,
78,80,162,1,6,13,6,19.28280989988707,,19.26950619998388,19.28280989988707,20.282903699902818,20.282903699902818,20.282903699902818,20.335462999995798,l,0.05024589993990958,None,127943,001,2024-11-15_11h33.05.297,delay discounting experiment,2024.1.5,None,2024-11-15 11h33.09.570532 +0530,
15,35,13,2,0,14,1,20.34920349996537,,20.336362899979576,20.34920349996537,21.349591800011694,21.349591800011694,21.349591800011694,21.717580299824476,l,0.35992919979617,None,127943,001,2024-11-15_11h33.05.297,delay discounting experiment,2024.1.5,None,2024-11-15 11h33.09.570532 +0530,
40,55,62,2,1,15,3,21.732451299903914,,21.718636899953708,21.732451299903914,22.7326163998805,22.7326163998805,22.7326163998805,23.31706379982643,l,0.5788616999052465,None,127943,001,2024-11-15_11h33.05.297,delay discounting experiment,2024.1.5,None,2024-11-15 11h33.09.570532 +0530,
78,80,162,2,2,16,6,23.33235519984737,,23.31852989993058,23.33235519984737,24.33237660001032,24.33237660001032,24.33237660001032,24.76860939990729,l,0.43306090007536113,None,127943,001,2024-11-15_11h33.05.297,delay discounting experiment,2024.1.5,None,2024-11-15 11h33.09.570532 +0530,
11,30,7,2,3,17,0,24.782046699896455,,24.76943749981001,24.782046699896455,25.781804399797693,25.781804399797693,25.781804399797693,26.06745869992301,t,0.27075450005941093,None,127943,001,2024-11-15_11h33.05.297,delay discounting experiment,2024.1.5,None,2024-11-15 11h33.09.570532 +0530,
27,50,21,2,4,18,2,26.081873499788344,,26.068961199838668,26.081873499788344,27.082043999806046,27.082043999806046,27.082043999806046,27.3499839999713,l,0.25452150008641183,None,127943,001,2024-11-15_11h33.05.297,delay discounting experiment,2024.1.5,None,2024-11-15 11h33.09.570532 +0530,
49,60,89,2,5,19,4,27.36517499992624,,27.350955199915916,27.36517499992624,28.365159299923107,28.365159299923107,28.365159299923107,28.734512199880555,t,0.36611469998024404,None,127943,001,2024-11-15_11h33.05.297,delay discounting experiment,2024.1.5,None,2024-11-15 11h33.09.570532 +0530,
67,75,119,2,6,20,5,28.748080799821764,,28.73555799992755,28.748080799821764,29.748263199813664,29.748263199813664,29.748263199813664,29.816638299962506,l,0.05267690005712211,None,127943,001,2024-11-15_11h33.05.297,delay discounting experiment,2024.1.5,None,2024-11-15 11h33.09.570532 +0530,
67,75,119,3,0,21,5,29.831602199934423,,29.81766860000789,29.831602199934423,30.831524199806154,30.831524199806154,30.831524199806154,31.133057599887252,l,0.2901002001017332,None,127943,001,2024-11-15_11h33.05.297,delay discounting experiment,2024.1.5,None,2024-11-15 11h33.09.570532 +0530,
40,55,62,3,1,22,3,31.14778200001456,,31.133916499791667,31.14778200001456,32.14798199990764,32.14798199990764,32.14798199990764,32.41816859995015,t,0.2671890000347048,None,127943,001,2024-11-15_11h33.05.297,delay discounting experiment,2024.1.5,None,2024-11-15 11h33.09.570532 +0530,
78,80,162,3,2,23,6,32.43109479988925,,32.419406099943444,32.43109479988925,33.431190099800006,33.431190099800006,33.431190099800006,33.81588629982434,t,0.3766238000243902,None,127943,001,2024-11-15_11h33.05.297,delay discounting experiment,2024.1.5,None,2024-11-15 11h33.09.570532 +0530,
15,35,13,3,3,24,1,33.830869499826804,,33.816819899948314,33.830869499826804,34.83102929987945,34.83102929987945,34.83102929987945,34.9994105999358,l,0.15187270008027554,None,127943,001,2024-11-15_11h33.05.297,delay discounting experiment,2024.1.5,None,2024-11-15 11h33.09.570532 +0530,
11,30,7,3,4,25,0,35.01410479983315,,35.00058679981157,35.01410479983315,36.01424799999222,36.01424799999222,36.01424799999222,36.281088499818,t,0.26042750012129545,None,127943,001,2024-11-15_11h33.05.297,delay discounting experiment,2024.1.5,None,2024-11-15 11h33.09.570532 +0530,
27,50,21,3,5,26,2,36.29707819991745,,36.28154559992254,36.29707819991745,37.28073549992405,37.28073549992405,37.29722509998828,37.61575559992343,t,0.3296532998792827,None,127943,001,2024-11-15_11h33.05.297,delay discounting experiment,2024.1.5,None,2024-11-15 11h33.09.570532 +0530,
49,60,89,3,6,27,4,37.630429399898276,,37.61672890000045,37.630429399898276,38.63042649999261,38.63042649999261,38.63042649999261,38.70035649999045,l,0.06737449998036027,None,127943,001,2024-11-15_11h33.05.297,delay discounting experiment,2024.1.5,None,2024-11-15 11h33.09.570532 +0530,
11,30,7,4,0,28,0,38.713653299957514,,38.701354099903256,38.713653299957514,39.713605699827895,39.713605699827895,39.713605699827895,40.61559289996512,t,0.8963854999747127,None,127943,001,2024-11-15_11h33.05.297,delay discounting experiment,2024.1.5,None,2024-11-15 11h33.09.570532 +0530,
27,50,21,4,1,29,2,40.63002189993858,,40.61663189996034,40.63002189993858,41.62998489988968,41.62998489988968,41.62998489988968,41.915305599803105,l,0.2825281999539584,None,127943,001,2024-11-15_11h33.05.297,delay discounting experiment,2024.1.5,None,2024-11-15 11h33.09.570532 +0530,
67,75,119,4,2,30,5,41.929795200005174,,41.91623889980838,41.929795200005174,42.929902399890125,42.929902399890125,42.929902399890125,42.98186659999192,l,0.04892069986090064,None,127943,001,2024-11-15_11h33.05.297,delay discounting experiment,2024.1.5,None,2024-11-15 11h33.09.570532 +0530,
78,80,162,4,3,31,6,42.99629749986343,,42.98278600000776,42.99629749986343,43.99622689979151,43.99622689979151,43.99622689979151,44.36428270000033,l,0.3637967000249773,None,127943,001,2024-11-15_11h33.05.297,delay discounting experiment,2024.1.5,None,2024-11-15 11h33.09.570532 +0530,
15,35,13,4,4,32,1,44.37965159979649,,44.36511469981633,44.37965159979649,45.37966649979353,45.37966649979353,45.37966649979353,45.64712330000475,t,0.25119960005395114,None,127943,001,2024-11-15_11h33.05.297,delay discounting experiment,2024.1.5,None,2024-11-15 11h33.09.570532 +0530,
49,60,89,4,5,33,4,45.66266689985059,,45.6477357998956,45.66266689985059,46.66292309993878,46.66292309993878,46.66292309993878,46.9809229997918,l,0.31242390000261366,None,127943,001,2024-11-15_11h33.05.297,delay discounting experiment,2024.1.5,None,2024-11-15 11h33.09.570532 +0530,
40,55,62,4,6,34,3,46.995753899915144,,46.981919599929824,46.995753899915144,47.9957979999017,47.9957979999017,47.9957979999017,48.06460559996776,t,0.05377330002374947,None,127943,001,2024-11-15_11h33.05.297,delay discounting experiment,2024.1.5,None,2024-11-15 11h33.09.570532 +0530,
27,50,21,5,0,35,2,48.07902939990163,,48.065619099885225,48.07902939990163,49.07880129991099,49.07880129991099,49.07880129991099,49.18165629985742,t,0.0997797001618892,None,127943,001,2024-11-15_11h33.05.297,delay discounting experiment,2024.1.5,None,2024-11-15 11h33.09.570532 +0530,
49,60,89,5,1,36,4,49.19530209992081,,49.182678299956024,49.19530209992081,50.19558189995587,50.19558189995587,50.19558189995587,50.665470300009474,l,0.4670784999616444,None,127943,001,2024-11-15_11h33.05.297,delay discounting experiment,2024.1.5,None,2024-11-15 11h33.09.570532 +0530,
67,75,119,5,2,37,5,50.67863260000013,,50.66638179984875,50.67863260000013,51.67849179985933,51.67849179985933,51.67849179985933,51.94691379996948,t,0.2563908000010997,None,127943,001,2024-11-15_11h33.05.297,delay discounting experiment,2024.1.5,None,2024-11-15 11h33.09.570532 +0530,
15,35,13,5,3,38,1,51.96187120000832,,51.94783329986967,51.96187120000832,52.96215589996427,52.96215589996427,52.96215589996427,53.36318779992871,t,0.39786599995568395,None,127943,001,2024-11-15_11h33.05.297,delay discounting experiment,2024.1.5,None,2024-11-15 11h33.09.570532 +0530,
40,55,62,5,4,39,3,53.378527199849486,,53.36394939990714,53.378527199849486,54.378468999871984,54.378468999871984,54.378468999871984,54.77965549984947,l,0.3960042998660356,None,127943,001,2024-11-15_11h33.05.297,delay discounting experiment,2024.1.5,None,2024-11-15 11h33.09.570532 +0530,
78,80,162,5,5,40,6,54.79475219990127,,54.78057929989882,54.79475219990127,55.794722699793056,55.794722699793056,55.794722699793056,56.02994319982827,t,0.22323060012422502,None,127943,001,2024-11-15_11h33.05.297,delay discounting experiment,2024.1.5,None,2024-11-15 11h33.09.570532 +0530,
11,30,7,5,6,41,0,56.044543399941176,,56.031079299980775,56.044543399941176,57.04465839988552,57.04465839988552,57.04465839988552,57.82966329995543,t,0.768700499786064,None,127943,001,2024-11-15_11h33.05.297,delay discounting experiment,2024.1.5,None,2024-11-15 11h33.09.570532 +0530,
67,75,119,6,0,42,5,57.844253399875015,,57.83086109999567,57.844253399875015,58.844297299860045,58.844297299860045,58.844297299860045,59.06267929985188,t,0.21131570008583367,None,127943,001,2024-11-15_11h33.05.297,delay discounting experiment,2024.1.5,None,2024-11-15 11h33.09.570532 +0530,
11,30,7,6,1,43,0,59.0776082999073,,59.06368129979819,59.0776082999073,60.07773449993692,60.07773449993692,60.07773449993692,60.14582440000959,l,0.0614142999984324,None,127943,001,2024-11-15_11h33.05.297,delay discounting experiment,2024.1.5,None,2024-11-15 11h33.09.570532 +0530,
78,80,162,6,2,44,6,60.16071939980611,,60.14676339994185,60.16071939980611,61.16036669979803,61.16036669979803,61.16036669979803,61.7456106999889,t,0.5813267999328673,None,127943,001,2024-11-15_11h33.05.297,delay discounting experiment,2024.1.5,None,2024-11-15 11h33.09.570532 +0530,
27,50,21,6,3,45,2,61.760489099891856,,61.746616899967194,61.760489099891856,62.76075939997099,62.76075939997099,62.76075939997099,62.89542399998754,l,0.12210189993493259,None,127943,001,2024-11-15_11h33.05.297,delay discounting experiment,2024.1.5,None,2024-11-15 11h33.09.570532 +0530,
49,60,89,6,4,46,4,62.91028209985234,,62.896576799917966,62.91028209985234,63.910376199986786,63.910376199986786,63.910376199986786,64.34574339981191,l,0.42489519994705915,None,127943,001,2024-11-15_11h33.05.297,delay discounting experiment,2024.1.5,None,2024-11-15 11h33.09.570532 +0530,
15,35,13,6,5,47,1,64.36023249989375,,64.34680079994723,64.36023249989375,65.36023369990289,65.36023369990289,65.36023369990289,65.72910319990478,l,0.3661231000442058,None,127943,001,2024-11-15_11h33.05.297,delay discounting experiment,2024.1.5,None,2024-11-15 11h33.09.570532 +0530,
40,55,62,6,6,48,3,65.7433444999624,,65.73003009986132,65.7433444999624,66.74317949987017,66.74317949987017,66.74317949987017,67.06187959993258,t,0.30099370004609227,None,127943,001,2024-11-15_11h33.05.297,delay discounting experiment,2024.1.5,None,2024-11-15 11h33.09.570532 +0530,
27,50,21,7,0,49,2,67.07659599999897,,67.06300109997392,67.07659599999897,68.07668729987927,68.07668729987927,68.07668729987927,68.46116489986889,t,0.37039369996637106,None,127943,001,2024-11-15_11h33.05.297,delay discounting experiment,2024.1.5,None,2024-11-15 11h33.09.570532 +0530,
78,80,162,7,1,50,6,68.47646929998882,,68.4620644999668,68.47646929998882,69.47655869997106,69.47655869997106,69.47655869997106,69.57871339982376,t,0.09537300001829863,None,127943,001,2024-11-15_11h33.05.297,delay discounting experiment,2024.1.5,None,2024-11-15 11h33.09.570532 +0530,
67,75,119,7,2,51,5,69.59262429992668,,69.58007879997604,69.59262429992668,70.59287489997223,70.59287489997223,70.59287489997223,70.92734299995936,l,0.31781859998591244,None,127943,001,2024-11-15_11h33.05.297,delay discounting experiment,2024.1.5,None,2024-11-15 11h33.09.570532 +0530,
11,30,7,7,3,52,0,70.9426051999908,,70.92805119999684,70.9426051999908,71.94261039979756,71.94261039979756,71.94261039979756,72.22794369980693,t,0.2807306000031531,None,127943,001,2024-11-15_11h33.05.297,delay discounting experiment,2024.1.5,None,2024-11-15 11h33.09.570532 +0530,
15,35,13,7,4,53,1,72.24236369994469,,72.22901829984039,72.24236369994469,73.24229329987429,73.24229329987429,73.24229329987429,73.61061999993399,l,0.3590369999874383,None,127943,001,2024-11-15_11h33.05.297,delay discounting experiment,2024.1.5,None,2024-11-15 11h33.09.570532 +0530,
40,55,62,7,5,54,3,73.62572199990973,,73.61158409994096,73.62572199990973,74.625869799871,74.625869799871,74.625869799871,75.04351029987447,l,0.4076306000351906,None,127943,001,2024-11-15_11h33.05.297,delay discounting experiment,2024.1.5,None,2024-11-15 11h33.09.570532 +0530,
49,60,89,7,6,55,4,75.0588099998422,,75.04445619997568,75.0588099998422,76.05883799982257,76.05883799982257,76.05883799982257,76.32811869983561,t,0.26711979997344315,None,127943,001,2024-11-15_11h33.05.297,delay discounting experiment,2024.1.5,None,2024-11-15 11h33.09.570532 +0530,
40,55,62,8,0,56,3,76.3419445999898,,76.32898360001855,76.3419445999898,77.3419116998557,77.3419116998557,77.3419116998557,77.64357149996795,t,0.29026399995200336,None,127943,001,2024-11-15_11h33.05.297,delay discounting experiment,2024.1.5,None,2024-11-15 11h33.09.570532 +0530,
78,80,162,8,1,57,6,77.65839479980059,,77.6445412999019,77.65839479980059,78.65839209989645,78.65839209989645,78.65839209989645,79.1272417998407,l,0.4658283998724073,None,127943,001,2024-11-15_11h33.05.297,delay discounting experiment,2024.1.5,None,2024-11-15 11h33.09.570532 +0530,
49,60,89,8,2,58,4,79.1414598999545,,79.12809419981204,79.1414598999545,80.14150249981321,80.14150249981321,80.14150249981321,80.54360009985976,t,0.3924693001899868,None,127943,001,2024-11-15_11h33.05.297,delay discounting experiment,2024.1.5,None,2024-11-15 11h33.09.570532 +0530,
67,75,119,8,3,59,5,80.55785939982161,,80.54462699987926,80.55785939982161,81.55808319989592,81.55808319989592,81.55808319989592,82.2434008999262,t,0.6820950000546873,None,127943,001,2024-11-15_11h33.05.297,delay discounting experiment,2024.1.5,None,2024-11-15 11h33.09.570532 +0530,
15,35,13,8,4,60,1,82.25790369999595,,82.24455229984596,82.25790369999595,83.25793369999155,83.25793369999155,83.25793369999155,83.50976169994101,t,0.2433567000553012,None,127943,001,2024-11-15_11h33.05.297,delay discounting experiment,2024.1.5,None,2024-11-15 11h33.09.570532 +0530,
11,30,7,8,5,61,0,83.5242671999149,,83.51084969984367,83.5242671999149,84.52457409980707,84.52457409980707,84.52457409980707,84.85907160001807,l,0.32565509993582964,None,127943,001,2024-11-15_11h33.05.297,delay discounting experiment,2024.1.5,None,2024-11-15 11h33.09.570532 +0530,
27,50,21,8,6,62,2,84.87413339992054,,84.86011939984746,84.87413339992054,85.8745458999183,85.8745458999183,85.8745458999183,86.32633770001121,l,0.4401875000912696,None,127943,001,2024-11-15_11h33.05.297,delay discounting experiment,2024.1.5,None,2024-11-15 11h33.09.570532 +0530,
15,35,13,9,0,63,1,86.34044189983979,,86.32741939998232,86.34044189983979,87.34042049990967,87.34042049990967,87.34042049990967,87.57531489990652,t,0.22031609993427992,None,127943,001,2024-11-15_11h33.05.297,delay discounting experiment,2024.1.5,None,2024-11-15 11h33.09.570532 +0530,
11,30,7,9,1,64,0,87.5904457999859,,87.57628119993024,87.5904457999859,88.59048099978827,88.59048099978827,88.59048099978827,88.70932059991173,l,0.11581870005466044,None,127943,001,2024-11-15_11h33.05.297,delay discounting experiment,2024.1.5,None,2024-11-15 11h33.09.570532 +0530,
78,80,162,9,2,65,6,88.72383319982328,,88.71049480000511,88.72383319982328,89.72360309981741,89.72360309981741,89.72360309981741,90.00871239998378,l,0.27552319993264973,None,127943,001,2024-11-15_11h33.05.297,delay discounting experiment,2024.1.5,None,2024-11-15 11h33.09.570532 +0530,
27,50,21,9,3,66,2,90.0234397999011,,90.00961819989607,90.0234397999011,91.02367319981568,91.02367319981568,91.02367319981568,91.22550980001688,l,0.19896589987911284,None,127943,001,2024-11-15_11h33.05.297,delay discounting experiment,2024.1.5,None,2024-11-15 11h33.09.570532 +0530,
40,55,62,9,4,67,3,91.2398260999471,,91.22642069985159,91.2398260999471,92.23997619980946,92.23997619980946,92.23997619980946,92.54161029984243,t,0.29319019988179207,None,127943,001,2024-11-15_11h33.05.297,delay discounting experiment,2024.1.5,None,2024-11-15 11h33.09.570532 +0530,
49,60,89,9,5,68,4,92.55653059994802,,92.54259259998798,92.55653059994802,93.55652799992822,93.55652799992822,93.55652799992822,93.8951659000013,t,0.3339771998580545,None,127943,001,2024-11-15_11h33.05.297,delay discounting experiment,2024.1.5,None,2024-11-15 11h33.09.570532 +0530,
67,75,119,9,6,69,5,93.90706150000915,,93.8960470999591,93.90706150000915,94.90635439986363,94.90635439986363,94.90635439986363,95.44144279998727,t,0.5296229000668973,None,127943,001,2024-11-15_11h33.05.297,delay discounting experiment,2024.1.5,None,2024-11-15 11h33.09.570532 +0530,
40,55,62,10,0,70,3,95.45608249981888,,95.44264799985103,95.45608249981888,96.45616959990002,96.45616959990002,96.45616959990002,96.69081919989549,l,0.22548310016281903,None,127943,001,2024-11-15_11h33.05.297,delay discounting experiment,2024.1.5,None,2024-11-15 11h33.09.570532 +0530,
67,75,119,10,1,71,5,96.70595609978773,,96.6921188000124,96.70595609978773,97.70607329998165,97.70607329998165,97.70607329998165,98.1573236999102,l,0.4345960000064224,None,127943,001,2024-11-15_11h33.05.297,delay discounting experiment,2024.1.5,None,2024-11-15 11h33.09.570532 +0530,
11,30,7,10,2,72,0,98.17237199982628,,98.15830429992639,98.17237199982628,99.17246989998966,99.17246989998966,99.17246989998966,99.57401919993572,l,0.3975875999312848,None,127943,001,2024-11-15_11h33.05.297,delay discounting experiment,2024.1.5,None,2024-11-15 11h33.09.570532 +0530,
78,80,162,10,3,73,6,99.58888629986905,,99.57487619994208,99.58888629986905,100.5886196999345,100.5886196999345,100.5886196999345,101.50764139997773,t,0.9145853999070823,None,127943,001,2024-11-15_11h33.05.297,delay discounting experiment,2024.1.5,None,2024-11-15 11h33.09.570532 +0530,
49,60,89,10,4,74,4,101.52186779980548,,101.50866309995763,101.52186779980548,102.52201279997826,102.52201279997826,102.52201279997826,102.69009789987467,l,0.15161900012753904,None,127943,001,2024-11-15_11h33.05.297,delay discounting experiment,2024.1.5,None,2024-11-15 11h33.09.570532 +0530,
27,50,21,10,5,75,2,102.70536319981329,,102.69110579998232,102.70536319981329,103.70524889999069,103.70524889999069,103.70524889999069,103.93988949991763,t,0.228633499937132,None,127943,001,2024-11-15_11h33.05.297,delay discounting experiment,2024.1.5,None,2024-11-15 11h33.09.570532 +0530,
15,35,13,10,6,76,1,103.95499879983254,,103.9406328999903,103.95499879983254,104.955042099813,104.955042099813,104.955042099813,105.47350519988686,t,0.5067753000184894,None,127943,001,2024-11-15_11h33.05.297,delay discounting experiment,2024.1.5,None,2024-11-15 11h33.09.570532 +0530,
67,75,119,11,0,77,5,105.48802279983647,,105.4747081999667,105.48802279983647,106.48810349986888,106.48810349986888,106.48810349986888,106.87213469995186,l,0.37442100001499057,None,127943,001,2024-11-15_11h33.05.297,delay discounting experiment,2024.1.5,None,2024-11-15 11h33.09.570532 +0530,
27,50,21,11,1,78,2,106.88784929993562,,106.8727241999004,106.88784929993562,107.88795499992557,107.88795499992557,107.88795499992557,108.05646989983507,l,0.16304120002314448,None,127943,001,2024-11-15_11h33.05.297,delay discounting experiment,2024.1.5,None,2024-11-15 11h33.09.570532 +0530,
11,30,7,11,2,79,0,108.07099619996734,,108.05735579994507,108.07099619996734,109.07091109990142,109.07091109990142,109.07091109990142,109.40626429999247,t,0.3236493000295013,None,127943,001,2024-11-15_11h33.05.297,delay discounting experiment,2024.1.5,None,2024-11-15 11h33.09.570532 +0530,
40,55,62,11,3,80,3,109.42101349984296,,109.40736559988,109.42101349984296,110.42100450000726,110.42100450000726,110.42100450000726,110.67248439998366,l,0.2433980000205338,None,127943,001,2024-11-15_11h33.05.297,delay discounting experiment,2024.1.5,None,2024-11-15 11h33.09.570532 +0530,
49,60,89,11,4,81,4,110.68736450001597,,110.67333979997784,110.68736450001597,111.68747449992225,111.68747449992225,111.68747449992225,111.98912589997053,t,0.29111120011657476,None,127943,001,2024-11-15_11h33.05.297,delay discounting experiment,2024.1.5,None,2024-11-15 11h33.09.570532 +0530,
78,80,162,11,5,82,6,112.00397379999049,,111.99014209979214,112.00397379999049,113.00394139997661,113.00394139997661,113.00394139997661,113.32226109993644,t,0.30128900008276105,None,127943,001,2024-11-15_11h33.05.297,delay discounting experiment,2024.1.5,None,2024-11-15 11h33.09.570532 +0530,
15,35,13,11,6,83,1,113.33689389983192,,113.32322579994798,113.33689389983192,114.33697459986433,114.33697459986433,114.33697459986433,114.37201939988881,t,0.028771599987521768,None,127943,001,2024-11-15_11h33.05.297,delay discounting experiment,2024.1.5,None,2024-11-15 11h33.09.570532 +0530,
11,30,7,12,0,84,0,114.38690439984202,,114.37305599986576,114.38690439984202,115.38686989992857,115.38686989992857,115.38686989992857,116.53854470001534,t,1.1411669999361038,None,127943,001,2024-11-15_11h33.05.297,delay discounting experiment,2024.1.5,None,2024-11-15 11h33.09.570532 +0530,
49,60,89,12,1,85,4,116.5533425998874,,116.53954439982772,116.5533425998874,117.55332700000145,117.55332700000145,117.55332700000145,118.00498600001447,l,0.44330319995060563,None,127943,001,2024-11-15_11h33.05.297,delay discounting experiment,2024.1.5,None,2024-11-15 11h33.09.570532 +0530,
40,55,62,12,2,86,3,118.02055989997461,,118.00588770001195,118.02055989997461,119.01987629989162,119.01987629989162,119.01987629989162,119.52155709988438,l,0.4907062000129372,None,127943,001,2024-11-15_11h33.05.297,delay discounting experiment,2024.1.5,None,2024-11-15 11h33.09.570532 +0530,
67,75,119,12,3,87,5,119.53620679979213,,119.52256929990835,119.53620679979213,120.53624739986844,120.53624739986844,120.53624739986844,120.65436990000308,t,0.1032281001098454,None,127943,001,2024-11-15_11h33.05.297,delay discounting experiment,2024.1.5,None,2024-11-15 11h33.09.570532 +0530,
78,80,162,12,4,88,6,120.6694638999179,,120.65534379985183,120.6694638999179,121.66980389994569,121.66980389994569,121.66980389994569,122.17158399987966,l,0.485542899928987,None,127943,001,2024-11-15_11h33.05.297,delay discounting experiment,2024.1.5,None,2024-11-15 11h33.09.570532 +0530,
15,35,13,12,5,89,1,122.18588209990412,,122.17259430000558,122.18588209990412,123.18585929996334,123.18585929996334,123.18585929996334,123.62156919995323,l,0.42209400003775954,None,127943,001,2024-11-15_11h33.05.297,delay discounting experiment,2024.1.5,None,2024-11-15 11h33.09.570532 +0530,
27,50,21,12,6,90,2,123.63558799983002,,123.6228387998417,123.63558799983002,124.63573069986887,124.63573069986887,124.63573069986887,125.00449849991128,t,0.3601901999209076,None,127943,001,2024-11-15_11h33.05.297,delay discounting experiment,2024.1.5,None,2024-11-15 11h33.09.570532 +0530,
11,30,7,13,0,91,0,125.01895089983009,,125.00553429988213,125.01895089983009,126.0189782998059,126.0189782998059,126.0189782998059,126.23703859979287,l,0.2042366999667138,None,127943,001,2024-11-15_11h33.05.297,delay discounting experiment,2024.1.5,None,2024-11-15 11h33.09.570532 +0530,
67,75,119,13,1,92,5,126.25193459982984,,126.23803519993089,126.25193459982984,127.25222599995323,127.25222599995323,127.25222599995323,127.35303039988503,l,0.09010809985920787,None,127943,001,2024-11-15_11h33.05.297,delay discounting experiment,2024.1.5,None,2024-11-15 11h33.09.570532 +0530,
15,35,13,13,2,93,1,127.36857880000025,,127.35389259993099,127.36857880000025,128.3686758999247,128.3686758999247,128.3686758999247,128.63702329993248,t,0.2611592998728156,None,127943,001,2024-11-15_11h33.05.297,delay discounting experiment,2024.1.5,None,2024-11-15 11h33.09.570532 +0530,
78,80,162,13,3,94,6,128.65185379981995,,128.63806689996272,128.65185379981995,129.6517436997965,129.6517436997965,129.6517436997965,129.78825919982046,l,0.1339384000748396,None,127943,001,2024-11-15_11h33.05.297,delay discounting experiment,2024.1.5,None,2024-11-15 11h33.09.570532 +0530,
27,50,21,13,4,95,2,129.80145849986002,,129.78961759991944,129.80145849986002,130.80173499998637,130.80173499998637,130.80173499998637,131.16849659988657,t,0.36066280002705753,None,127943,001,2024-11-15_11h33.05.297,delay discounting experiment,2024.1.5,None,2024-11-15 11h33.09.570532 +0530,
49,60,89,13,5,96,4,131.18458190001547,,131.16889639990404,131.18458190001547,132.16813170001842,132.16813170001842,132.18462789990008,132.27003020001575,t,0.09552299999631941,None,127943,001,2024-11-15_11h33.05.297,delay discounting experiment,2024.1.5,None,2024-11-15 11h33.09.570532 +0530,
40,55,62,13,6,97,3,132.28452069987543,,132.2709036997985,132.28452069987543,133.2845997000113,133.2845997000113,133.2845997000113,133.6526867998764,t,0.35222369991242886,None,127943,001,2024-11-15_11h33.05.297,delay discounting experiment,2024.1.5,None,2024-11-15 11h33.09.570532 +0530,
67,75,119,14,0,98,5,133.66782289999537,,133.65357109997422,133.66782289999537,134.6679624998942,134.6679624998942,134.6679624998942,134.9710740998853,l,0.30043460009619594,None,127943,001,2024-11-15_11h33.05.297,delay discounting experiment,2024.1.5,None,2024-11-15 11h33.09.570532 +0530,
40,55,62,14,1,99,3,134.98415839998052,,134.9724675999023,134.98415839998052,135.98395359981805,135.98395359981805,135.98395359981805,136.63586639985442,l,0.6396025998983532,None,127943,001,2024-11-15_11h33.05.297,delay discounting experiment,2024.1.5,None,2024-11-15 11h33.09.570532 +0530,
27,50,21,14,2,100,2,136.65074339997955,,136.63676329981536,136.65074339997955,137.65088689979166,137.65088689979166,137.65088689979166,137.93540750001557,t,0.2701560000423342,None,127943,001,2024-11-15_11h33.05.297,delay discounting experiment,2024.1.5,None,2024-11-15 11h33.09.570532 +0530,
49,60,89,14,3,101,4,137.95057399990037,,137.9366262999829,137.95057399990037,138.95078409998678,138.95078409998678,138.95078409998678,139.5685126997996,l,0.612948999973014,None,127943,001,2024-11-15_11h33.05.297,delay discounting experiment,2024.1.5,None,2024-11-15 11h33.09.570532 +0530,
78,80,162,14,4,102,6,139.5834081999492,,139.56941009988077,139.5834081999492,140.58378220000304,140.58378220000304,140.58378220000304,140.88535130000673,l,0.29089839989319444,None,127943,001,2024-11-15_11h33.05.297,delay discounting experiment,2024.1.5,None,2024-11-15 11h33.09.570532 +0530,
15,35,13,14,5,103,1,140.90018239989877,,140.88659829995595,140.90018239989877,141.90024219988845,141.90024219988845,141.90024219988845,142.1849858998321,t,0.2682515000924468,None,127943,001,2024-11-15_11h33.05.297,delay discounting experiment,2024.1.5,None,2024-11-15 11h33.09.570532 +0530,
11,30,7,14,6,104,0,142.199990299996,,142.1858651000075,142.199990299996,143.19999999995343,143.19999999995343,143.19999999995343,143.81841989979148,t,0.6147786998189986,None,127943,001,2024-11-15_11h33.05.297,delay discounting experiment,2024.1.5,None,2024-11-15 11h33.09.570532 +0530,
