reward_today,future_reward,delay,trials.thisRepN,trials.thisTrialN,trials.thisN,trials.thisIndex,thisRow.t,notes,trial.started,fixation.started,text.started,key_resp.started,fixation.stopped,trial.stopped,key_resp.keys,key_resp.rt,key_resp.duration,participant,session,date,expName,psychopyVersion,frameRate,expStart,
15,35,13,0,0,0,1,0.03742979979142547,,0.006618799874559045,0.03742979979142547,1.0135443999897689,1.0135443999897689,1.0469908998347819,1.5368121999781579,l,0.5120061000343412,None,914199,001,2024-11-15_11h36.36.456,delay discounting experiment,2024.1.5,None,2024-11-15 11h36.40.496959 +0530,
49,60,89,0,1,1,4,1.5482355998829007,,1.5379694998264313,1.5482355998829007,2.5468097999691963,2.5468097999691963,2.5637782998383045,2.8152551997918636,t,0.26314710010774434,None,914199,001,2024-11-15_11h36.36.456,delay discounting experiment,2024.1.5,None,2024-11-15 11h36.40.496959 +0530,
40,55,62,0,2,2,3,2.8299387998413295,,2.816177199827507,2.8299387998413295,3.8298514999914914,3.8298514999914914,3.8298514999914914,4.198079099878669,l,0.35924909985624254,None,914199,001,2024-11-15_11h36.36.456,delay discounting experiment,2024.1.5,None,2024-11-15 11h36.40.496959 +0530,
67,75,119,0,3,3,5,4.213096699910238,,4.198982700007036,4.213096699910238,5.213456999976188,5.213456999976188,5.213456999976188,5.3650473998859525,t,0.1426703000906855,None,914199,001,2024-11-15_11h36.36.456,delay discounting experiment,2024.1.5,None,2024-11-15 11h36.40.496959 +0530,
27,50,21,0,4,4,2,5.379868699936196,,5.366008099867031,5.379868699936196,6.380116599844769,6.380116599844769,6.380116599844769,6.731340399943292,l,0.3346281999256462,None,914199,001,2024-11-15_11h36.36.456,delay discounting experiment,2024.1.5,None,2024-11-15 11h36.40.496959 +0530,
78,80,162,0,5,5,6,6.7460413000080734,,6.732445599976927,6.7460413000080734,7.746286599896848,7.746286599896848,7.746286599896848,7.8983115998562425,t,0.1485037999227643,None,914199,001,2024-11-15_11h36.36.456,delay discounting experiment,2024.1.5,None,2024-11-15 11h36.40.496959 +0530,
11,30,7,0,6,6,0,7.912727999966592,,7.899379899958149,7.912727999966592,8.912922199815512,8.912922199815512,8.912922199815512,9.083076299866661,l,0.1671740000601858,None,914199,001,2024-11-15_11h36.36.456,delay discounting experiment,2024.1.5,None,2024-11-15 11h36.40.496959 +0530,
15,35,13,1,0,7,1,9.095619399799034,,9.084017799934372,9.095619399799034,10.09587089996785,10.09587089996785,10.09587089996785,10.33058759989217,t,0.22962619992904365,None,914199,001,2024-11-15_11h36.36.456,delay discounting experiment,2024.1.5,None,2024-11-15 11h36.40.496959 +0530,
49,60,89,1,1,8,4,10.345664999913424,,10.331479199929163,10.345664999913424,11.34557279990986,11.34557279990986,11.34557279990986,11.580975099932402,l,0.226289700018242,None,914199,001,2024-11-15_11h36.36.456,delay discounting experiment,2024.1.5,None,2024-11-15 11h36.40.496959 +0530,
40,55,62,1,2,9,3,11.59551369980909,,11.582104199798778,11.59551369980909,12.595541399903595,12.595541399903595,12.595541399903595,12.747089699842036,l,0.13677059998735785,None,914199,001,2024-11-15_11h36.36.456,delay discounting experiment,2024.1.5,None,2024-11-15 11h36.40.496959 +0530,
11,30,7,1,3,10,0,12.762054899940267,,12.748007799964398,12.762054899940267,13.762116199824959,13.762116199824959,13.762116199824959,14.330189100001007,t,0.5627657000441104,None,914199,001,2024-11-15_11h36.36.456,delay discounting experiment,2024.1.5,None,2024-11-15 11h36.40.496959 +0530,
78,80,162,1,4,11,6,14.34530879999511,,14.331140799913555,14.34530879999511,15.34518579998985,15.34518579998985,15.34518579998985,15.613685199990869,l,0.25627909996546805,None,914199,001,2024-11-15_11h36.36.456,delay discounting experiment,2024.1.5,None,2024-11-15 11h36.40.496959 +0530,
27,50,21,1,5,12,2,15.628000299911946,,15.614737899973989,15.628000299911946,16.628576799994335,16.628576799994335,16.628576799994335,16.830191099783406,t,0.18466899986378849,None,914199,001,2024-11-15_11h36.36.456,delay discounting experiment,2024.1.5,None,2024-11-15 11h36.40.496959 +0530,
67,75,119,1,6,13,5,16.844715899787843,,16.83136839978397,16.844715899787843,17.8448254999239,17.8448254999239,17.8448254999239,17.91317359986715,l,0.05875739990733564,None,914199,001,2024-11-15_11h36.36.456,delay discounting experiment,2024.1.5,None,2024-11-15 11h36.40.496959 +0530,
40,55,62,2,0,14,3,17.928101999918,,17.914199499879032,17.928101999918,18.928110599983484,18.928110599983484,18.928110599983484,18.96318919979967,t,0.026037000119686127,None,914199,001,2024-11-15_11h36.36.456,delay discounting experiment,2024.1.5,None,2024-11-15 11h36.40.496959 +0530,
11,30,7,2,1,15,0,18.9777688998729,,18.96421239990741,18.9777688998729,19.977971299784258,19.977971299784258,19.977971299784258,21.462708299979568,l,1.469493799842894,None,914199,001,2024-11-15_11h36.36.456,delay discounting experiment,2024.1.5,None,2024-11-15 11h36.40.496959 +0530,
15,35,13,2,2,16,1,21.479324499843642,,21.463641199981794,21.479324499843642,22.47751529980451,22.47751529980451,22.49424839997664,22.49625749979168,t,0.003747300012037158,None,914199,001,2024-11-15_11h36.36.456,delay discounting experiment,2024.1.5,None,2024-11-15 11h36.40.496959 +0530,
67,75,119,2,3,17,5,22.510750299785286,,22.497707800008357,22.510750299785286,23.51077859988436,23.51077859988436,23.51077859988436,23.812653000000864,t,0.2879790000151843,None,914199,001,2024-11-15_11h36.36.456,delay discounting experiment,2024.1.5,None,2024-11-15 11h36.40.496959 +0530,
78,80,162,2,4,18,6,23.82723269984126,,23.81365739996545,23.82723269984126,24.8273531999439,24.8273531999439,24.8273531999439,25.11274249991402,t,0.27887540007941425,None,914199,001,2024-11-15_11h36.36.456,delay discounting experiment,2024.1.5,None,2024-11-15 11h36.40.496959 +0530,
27,50,21,2,5,19,2,25.127057199832052,,25.11375799984671,25.127057199832052,26.127141299890354,26.127141299890354,26.127141299890354,26.362428299849853,l,0.22212309995666146,None,914199,001,2024-11-15_11h36.36.456,delay discounting experiment,2024.1.5,None,2024-11-15 11h36.40.496959 +0530,
49,60,89,2,6,20,4,26.37699279980734,,26.363602799829096,26.37699279980734,27.377048399997875,27.377048399997875,27.377048399997875,27.56323659978807,t,0.18365499982610345,None,914199,001,2024-11-15_11h36.36.456,delay discounting experiment,2024.1.5,None,2024-11-15 11h36.40.496959 +0530,
67,75,119,3,0,21,5,27.576699799858034,,27.564104799879715,27.576699799858034,28.576894599944353,28.576894599944353,28.576894599944353,28.912161499960348,l,0.3218090001028031,None,914199,001,2024-11-15_11h36.36.456,delay discounting experiment,2024.1.5,None,2024-11-15 11h36.40.496959 +0530,
15,35,13,3,1,22,1,28.926473299972713,,28.913223799783736,28.926473299972713,29.926699799951166,29.926699799951166,29.926699799951166,30.244627499952912,t,0.31246879999525845,None,914199,001,2024-11-15_11h36.36.456,delay discounting experiment,2024.1.5,None,2024-11-15 11h36.40.496959 +0530,
78,80,162,3,2,23,6,30.25965779996477,,30.245616199914366,30.25965779996477,31.25989759992808,31.25989759992808,31.25989759992808,31.39456049981527,l,0.1195357998367399,None,914199,001,2024-11-15_11h36.36.456,delay discounting experiment,2024.1.5,None,2024-11-15 11h36.40.496959 +0530,
40,55,62,3,3,24,3,31.409577999962494,,31.39558079978451,31.409577999962494,32.40963889984414,32.40963889984414,32.40963889984414,32.66121659986675,t,0.2402992001734674,None,914199,001,2024-11-15_11h36.36.456,delay discounting experiment,2024.1.5,None,2024-11-15 11h36.40.496959 +0530,
27,50,21,3,4,25,2,32.67605369980447,,32.66239019995555,32.67605369980447,33.67613219982013,33.67613219982013,33.67613219982013,33.863005499821156,l,0.18404529988765717,None,914199,001,2024-11-15_11h36.36.456,delay discounting experiment,2024.1.5,None,2024-11-15 11h36.40.496959 +0530,
11,30,7,3,5,26,0,33.87586869997904,,33.86401669983752,33.87586869997904,34.876119499793276,34.876119499793276,34.876119499793276,34.89461939991452,t,0.004275300074368715,None,914199,001,2024-11-15_11h36.36.456,delay discounting experiment,2024.1.5,None,2024-11-15 11h36.40.496959 +0530,
49,60,89,3,6,27,4,34.90919979987666,,34.89567549992353,34.90919979987666,35.90927729988471,35.90927729988471,35.90927729988471,36.17826019995846,l,0.2661216000560671,None,914199,001,2024-11-15_11h36.36.456,delay discounting experiment,2024.1.5,None,2024-11-15 11h36.40.496959 +0530,
78,80,162,4,0,28,6,36.19216079986654,,36.179165799869224,36.19216079986654,37.19231219985522,37.19231219985522,37.19231219985522,37.27728879987262,t,0.08112949994392693,None,914199,001,2024-11-15_11h36.36.456,delay discounting experiment,2024.1.5,None,2024-11-15 11h36.40.496959 +0530,
27,50,21,4,1,29,2,37.2920460999012,,37.27817579987459,37.2920460999012,38.29207229986787,38.29207229986787,38.29207229986787,38.593639199854806,l,0.2850929000414908,None,914199,001,2024-11-15_11h36.36.456,delay discounting experiment,2024.1.5,None,2024-11-15 11h36.40.496959 +0530,
49,60,89,4,2,30,4,38.60862309997901,,38.594726599985734,38.60862309997901,39.608639099868014,39.608639099868014,39.608639099868014,39.82714819977991,t,0.20324279996566474,None,914199,001,2024-11-15_11h36.36.456,delay discounting experiment,2024.1.5,None,2024-11-15 11h36.40.496959 +0530,
11,30,7,4,3,31,0,39.84163949987851,,39.82823569979519,39.84163949987851,40.84181649982929,40.84181649982929,40.84181649982929,41.093663699924946,l,0.235540600027889,None,914199,001,2024-11-15_11h36.36.456,delay discounting experiment,2024.1.5,None,2024-11-15 11h36.40.496959 +0530,
40,55,62,4,4,32,3,41.108370299916714,,41.094762599794194,41.108370299916714,42.10829329979606,42.10829329979606,42.10829329979606,42.8431535998825,t,0.7266481001861393,None,914199,001,2024-11-15_11h36.36.456,delay discounting experiment,2024.1.5,None,2024-11-15 11h36.40.496959 +0530,
67,75,119,4,5,33,5,42.85820909985341,,42.844698699889705,42.85820909985341,43.85829389980063,43.85829389980063,43.85829389980063,44.327415799954906,t,0.45440839999355376,None,914199,001,2024-11-15_11h36.36.456,delay discounting experiment,2024.1.5,None,2024-11-15 11h36.40.496959 +0530,
15,35,13,4,6,34,1,44.341118399985135,,44.32853339985013,44.341118399985135,45.34106889995746,45.34106889995746,45.34106889995746,45.91201929980889,t,0.5676528001204133,None,914199,001,2024-11-15_11h36.36.456,delay discounting experiment,2024.1.5,None,2024-11-15 11h36.40.496959 +0530,
11,30,7,5,0,35,0,45.924360199831426,,45.913124199956656,45.924360199831426,46.92438269988634,46.92438269988634,46.92438269988634,48.65794159984216,l,1.724091999931261,None,914199,001,2024-11-15_11h36.36.456,delay discounting experiment,2024.1.5,None,2024-11-15 11h36.40.496959 +0530,
49,60,89,5,1,36,4,48.67422109981999,,48.65852249995805,48.67422109981999,49.674119599862024,49.674119599862024,49.674119599862024,49.84209469985217,l,0.15385000011883676,None,914199,001,2024-11-15_11h36.36.456,delay discounting experiment,2024.1.5,None,2024-11-15 11h36.40.496959 +0530,
40,55,62,5,2,37,3,49.85724319983274,,49.84290159982629,49.85724319983274,50.85682939994149,50.85682939994149,50.85682939994149,51.22569859982468,l,0.35309649980627,None,914199,001,2024-11-15_11h36.36.456,delay discounting experiment,2024.1.5,None,2024-11-15 11h36.40.496959 +0530,
27,50,21,5,3,38,2,51.2401222998742,,51.22681629983708,51.2401222998742,52.240267199929804,52.240267199929804,52.240267199929804,52.40886519988999,t,0.16089160018600523,None,914199,001,2024-11-15_11h36.36.456,delay discounting experiment,2024.1.5,None,2024-11-15 11h36.40.496959 +0530,
78,80,162,5,4,39,6,52.423565899953246,,52.409858899889514,52.423565899953246,53.423469699919224,53.423469699919224,53.423469699919224,53.84214729978703,l,0.4029079000465572,None,914199,001,2024-11-15_11h36.36.456,delay discounting experiment,2024.1.5,None,2024-11-15 11h36.40.496959 +0530,
15,35,13,5,5,40,1,53.856643999926746,,53.84310029982589,53.856643999926746,54.85663819988258,54.85663819988258,54.85663819988258,55.108321300009266,t,0.24636489991098642,None,914199,001,2024-11-15_11h36.36.456,delay discounting experiment,2024.1.5,None,2024-11-15 11h36.40.496959 +0530,
67,75,119,5,6,41,5,55.12313899979927,,55.10928369988687,55.12313899979927,56.12322089984082,56.12322089984082,56.12322089984082,56.508827599929646,l,0.3829159999731928,None,914199,001,2024-11-15_11h36.36.456,delay discounting experiment,2024.1.5,None,2024-11-15 11h36.40.496959 +0530,
27,50,21,6,0,42,2,56.523047499824315,,56.50966260000132,56.523047499824315,57.52303379983641,57.52303379983641,57.52303379983641,57.72534649982117,t,0.19903360004536808,None,914199,001,2024-11-15_11h36.36.456,delay discounting experiment,2024.1.5,None,2024-11-15 11h36.40.496959 +0530,
40,55,62,6,1,43,3,57.73922979994677,,57.727973099797964,57.73922979994677,58.73936369991861,58.73936369991861,58.73936369991861,58.94141440000385,l,0.19716360000893474,None,914199,001,2024-11-15_11h36.36.456,delay discounting experiment,2024.1.5,None,2024-11-15 11h36.40.496959 +0530,
67,75,119,6,2,44,5,58.955779699841514,,58.94215329992585,58.955779699841514,59.955997799988836,59.955997799988836,59.955997799988836,60.39081729995087,t,0.4180353998672217,None,914199,001,2024-11-15_11h36.36.456,delay discounting experiment,2024.1.5,None,2024-11-15 11h36.40.496959 +0530,
15,35,13,6,3,45,1,60.405791899887845,,60.39192849979736,60.405791899887845,61.405810499796644,61.405810499796644,61.405810499796644,61.59085359983146,l,0.17126199998892844,None,914199,001,2024-11-15_11h36.36.456,delay discounting experiment,2024.1.5,None,2024-11-15 11h36.40.496959 +0530,
11,30,7,6,4,46,0,61.606165000004694,,61.591643599793315,61.606165000004694,62.605483499821275,62.605483499821275,62.605483499821275,62.992171299876645,t,0.38357939990237355,None,914199,001,2024-11-15_11h36.36.456,delay discounting experiment,2024.1.5,None,2024-11-15 11h36.40.496959 +0530,
78,80,162,6,5,47,6,63.00518159987405,,62.992889599874616,63.00518159987405,64.00537069980055,64.00537069980055,64.00537069980055,64.0569819000084,l,0.03501510014757514,None,914199,001,2024-11-15_11h36.36.456,delay discounting experiment,2024.1.5,None,2024-11-15 11h36.40.496959 +0530,
49,60,89,6,6,48,4,64.07232049992308,,64.05758609995246,64.07232049992308,65.0718725998886,65.0718725998886,65.0718725998886,65.42299439990893,t,0.33726110006682575,None,914199,001,2024-11-15_11h36.36.456,delay discounting experiment,2024.1.5,None,2024-11-15 11h36.40.496959 +0530,
49,60,89,7,0,49,4,65.43841780000366,,65.42372550000437,65.43841780000366,66.43841449986212,66.43841449986212,66.43841449986212,66.62420999980532,l,0.17040689988061786,None,914199,001,2024-11-15_11h36.36.456,delay discounting experiment,2024.1.5,None,2024-11-15 11h36.40.496959 +0530,
11,30,7,7,1,50,0,66.63840939989313,,66.6247093998827,66.63840939989313,67.6381382998079,67.6381382998079,67.6381382998079,67.9067412998993,t,0.2627095999196172,None,914199,001,2024-11-15_11h36.36.456,delay discounting experiment,2024.1.5,None,2024-11-15 11h36.40.496959 +0530,
27,50,21,7,2,51,2,67.92172479978763,,67.90746999997646,67.92172479978763,68.92139869998209,68.92139869998209,68.92139869998209,69.0902044000104,l,0.16043110005557537,None,914199,001,2024-11-15_11h36.36.456,delay discounting experiment,2024.1.5,None,2024-11-15 11h36.40.496959 +0530,
78,80,162,7,3,52,6,69.10510999988765,,69.09105259994976,69.10510999988765,70.10458469996229,70.10458469996229,70.10458469996229,70.42309159995057,t,0.3128398999106139,None,914199,001,2024-11-15_11h36.36.456,delay discounting experiment,2024.1.5,None,2024-11-15 11h36.40.496959 +0530,
67,75,119,7,4,53,5,70.43829600000754,,70.42385149979964,70.43829600000754,71.43751439987682,71.43751439987682,71.43751439987682,71.65673299995251,l,0.216564399888739,None,914199,001,2024-11-15_11h36.36.456,delay discounting experiment,2024.1.5,None,2024-11-15 11h36.40.496959 +0530,
40,55,62,7,5,54,3,71.67137659993023,,71.6581947999075,71.67137659993023,72.67082459991798,72.67082459991798,72.67082459991798,73.15558049990796,t,0.4761620000936091,None,914199,001,2024-11-15_11h36.36.456,delay discounting experiment,2024.1.5,None,2024-11-15 11h36.40.496959 +0530,
15,35,13,7,6,55,1,73.1708415998146,,73.15671249991283,73.1708415998146,74.17076159990393,74.17076159990393,74.17076159990393,74.22243689978495,l,0.04561150004155934,None,914199,001,2024-11-15_11h36.36.456,delay discounting experiment,2024.1.5,None,2024-11-15 11h36.40.496959 +0530,
27,50,21,8,0,56,2,74.23694179998711,,74.22316499985754,74.23694179998711,75.23701039981097,75.23701039981097,75.23701039981097,75.48860699986108,t,0.24465249991044402,None,914199,001,2024-11-15_11h36.36.456,delay discounting experiment,2024.1.5,None,2024-11-15 11h36.40.496959 +0530,
15,35,13,8,1,57,1,75.50371149997227,,75.48930809996091,75.50371149997227,76.50384389981627,76.50384389981627,76.50384389981627,76.68880769982934,l,0.1680625001899898,None,914199,001,2024-11-15_11h36.36.456,delay discounting experiment,2024.1.5,None,2024-11-15 11h36.40.496959 +0530,
49,60,89,8,2,58,4,76.70414499985054,,76.68993759993464,76.70414499985054,77.70356609998271,77.70356609998271,77.70356609998271,77.80485689989291,l,0.08976270002312958,None,914199,001,2024-11-15_11h36.36.456,delay discounting experiment,2024.1.5,None,2024-11-15 11h36.40.496959 +0530,
78,80,162,8,3,59,6,77.8200919998344,,77.80564079992473,77.8200919998344,78.82024889998138,78.82024889998138,78.82024889998138,79.12103309994563,t,0.28836799995042384,None,914199,001,2024-11-15_11h36.36.456,delay discounting experiment,2024.1.5,None,2024-11-15 11h36.40.496959 +0530,
11,30,7,8,4,60,0,79.1363272999879,,79.12204999988899,79.1363272999879,80.13637839979492,80.13637839979492,80.13637839979492,80.75503849983215,l,0.6147331001702696,None,914199,001,2024-11-15_11h36.36.456,delay discounting experiment,2024.1.5,None,2024-11-15 11h36.40.496959 +0530,
40,55,62,8,5,61,3,80.76969059999101,,80.75575939984992,80.76969059999101,81.76967989979312,81.76967989979312,81.76967989979312,82.4046269999817,t,0.6243837999645621,None,914199,001,2024-11-15_11h36.36.456,delay discounting experiment,2024.1.5,None,2024-11-15 11h36.40.496959 +0530,
67,75,119,8,6,62,5,82.41945499996655,,82.40530109987594,82.41945499996655,83.41946839983575,83.41946839983575,83.41946839983575,83.75435089995153,t,0.3192811000626534,None,914199,001,2024-11-15_11h36.36.456,delay discounting experiment,2024.1.5,None,2024-11-15 11h36.40.496959 +0530,
67,75,119,9,0,63,5,83.76942169992253,,83.75519499997608,83.76942169992253,84.76927899988368,84.76927899988368,84.76927899988368,85.28824079991318,l,0.5170029997825623,None,914199,001,2024-11-15_11h36.36.456,delay discounting experiment,2024.1.5,None,2024-11-15 11h36.40.496959 +0530,
15,35,13,9,1,64,1,85.30240439996123,,85.2890380998142,85.30240439996123,86.30262249987572,86.30262249987572,86.30262249987572,86.9539650999941,t,0.6363976998254657,None,914199,001,2024-11-15_11h36.36.456,delay discounting experiment,2024.1.5,None,2024-11-15 11h36.40.496959 +0530,
11,30,7,9,2,65,0,86.96889389981516,,86.9548206999898,86.96889389981516,87.96886399993673,87.96886399993673,87.96886399993673,88.15383289987221,l,0.1750928999390453,None,914199,001,2024-11-15_11h36.36.456,delay discounting experiment,2024.1.5,None,2024-11-15 11h36.40.496959 +0530,
40,55,62,9,3,66,3,88.16858209995553,,88.1545803998597,88.16858209995553,89.16878199996427,89.16878199996427,89.16878199996427,89.53758949995972,l,0.3595404999796301,None,914199,001,2024-11-15_11h36.36.456,delay discounting experiment,2024.1.5,None,2024-11-15 11h36.40.496959 +0530,
78,80,162,9,4,67,6,89.55203829985112,,89.53835059981793,89.55203829985112,90.55179069982842,90.55179069982842,90.55179069982842,90.92057059984654,t,0.3637824999168515,None,914199,001,2024-11-15_11h36.36.456,delay discounting experiment,2024.1.5,None,2024-11-15 11h36.40.496959 +0530,
27,50,21,9,5,68,2,90.93482779990882,,90.92130659986287,90.93482779990882,91.93531410000287,91.93531410000287,91.93531410000287,92.43925059982575,l,0.5006704998668283,None,914199,001,2024-11-15_11h36.36.456,delay discounting experiment,2024.1.5,None,2024-11-15 11h36.40.496959 +0530,
49,60,89,9,6,69,4,92.45182769978419,,92.44000399997458,92.45182769978419,93.45161009998992,93.45161009998992,93.45161009998992,93.60366969997995,t,0.1479691001586616,None,914199,001,2024-11-15_11h36.36.456,delay discounting experiment,2024.1.5,None,2024-11-15 11h36.40.496959 +0530,
67,75,119,10,0,70,5,93.6179831000045,,93.60448869992979,93.6179831000045,94.61805359995924,94.61805359995924,94.61805359995924,95.33660409995355,t,0.7139874000567943,None,914199,001,2024-11-15_11h36.36.456,delay discounting experiment,2024.1.5,None,2024-11-15 11h36.40.496959 +0530,
40,55,62,10,1,71,3,95.3512369999662,,95.33740059984848,95.3512369999662,96.35130839981139,96.35130839981139,96.35130839981139,97.21914199995808,l,0.8600665999110788,None,914199,001,2024-11-15_11h36.36.456,delay discounting experiment,2024.1.5,None,2024-11-15 11h36.40.496959 +0530,
78,80,162,10,2,72,6,97.2343624997884,,97.21988929994404,97.2343624997884,98.23401579982601,98.23401579982601,98.23401579982601,98.86960659991018,t,0.6315503001678735,None,914199,001,2024-11-15_11h36.36.456,delay discounting experiment,2024.1.5,None,2024-11-15 11h36.40.496959 +0530,
15,35,13,10,3,73,1,98.88407019991428,,98.87042319984175,98.88407019991428,99.88383309985511,99.88383309985511,99.88383309985511,100.25196979986504,l,0.36088769999332726,None,914199,001,2024-11-15_11h36.36.456,delay discounting experiment,2024.1.5,None,2024-11-15 11h36.40.496959 +0530,
49,60,89,10,4,74,4,100.26716399984434,,100.25332559994422,100.26716399984434,101.26720779994503,101.26720779994503,101.26720779994503,101.73557429993525,t,0.45632620016112924,None,914199,001,2024-11-15_11h36.36.456,delay discounting experiment,2024.1.5,None,2024-11-15 11h36.40.496959 +0530,
27,50,21,10,5,75,2,101.75074199982919,,101.7362167998217,101.75074199982919,102.7502609998919,102.7502609998919,102.7502609998919,103.051139799878,l,0.29173389985226095,None,914199,001,2024-11-15_11h36.36.456,delay discounting experiment,2024.1.5,None,2024-11-15 11h36.40.496959 +0530,
11,30,7,10,6,76,0,103.06681809993461,,103.0517370000016,103.06681809993461,104.06673299986869,104.06673299986869,104.06673299986869,104.43458079989068,t,0.35427549993619323,None,914199,001,2024-11-15_11h36.36.456,delay discounting experiment,2024.1.5,None,2024-11-15 11h36.40.496959 +0530,
40,55,62,11,0,77,3,104.44979389989749,,104.4353977998253,104.44979389989749,105.45018339995295,105.45018339995295,105.45018339995295,105.66750519978814,l,0.202652599895373,None,914199,001,2024-11-15_11h36.36.456,delay discounting experiment,2024.1.5,None,2024-11-15 11h36.40.496959 +0530,
49,60,89,11,1,78,4,105.68300569988787,,105.66822879994288,105.68300569988787,106.6829962998163,106.6829962998163,106.6829962998163,107.03497839998454,t,0.34490739996545017,None,914199,001,2024-11-15_11h36.36.456,delay discounting experiment,2024.1.5,None,2024-11-15 11h36.40.496959 +0530,
11,30,7,11,2,79,0,107.04948019981384,,107.03576479991898,107.04948019981384,108.04952079989016,108.04952079989016,108.04952079989016,108.35129119991325,l,0.2862941001076251,None,914199,001,2024-11-15_11h36.36.456,delay discounting experiment,2024.1.5,None,2024-11-15 11h36.40.496959 +0530,
67,75,119,11,3,80,5,108.36612399993464,,108.35214309999719,108.36612399993464,109.36601100000553,109.36601100000553,109.36601100000553,109.71775399986655,t,0.3418134998064488,None,914199,001,2024-11-15_11h36.36.456,delay discounting experiment,2024.1.5,None,2024-11-15 11h36.40.496959 +0530,
27,50,21,11,4,81,2,109.73259969986975,,109.71858399990015,109.73259969986975,110.73287219996564,110.73287219996564,110.73287219996564,111.10111909988336,l,0.366664299974218,None,914199,001,2024-11-15_11h36.36.456,delay discounting experiment,2024.1.5,None,2024-11-15 11h36.40.496959 +0530,
78,80,162,11,5,82,6,111.11569729982875,,111.10174690000713,111.11569729982875,112.11611049994826,112.11611049994826,112.11611049994826,112.75159249990247,t,0.6261246998328716,None,914199,001,2024-11-15_11h36.36.456,delay discounting experiment,2024.1.5,None,2024-11-15 11h36.40.496959 +0530,
15,35,13,11,6,83,1,112.76566309994087,,112.75271519995295,112.76566309994087,113.76576039986685,113.76576039986685,113.76576039986685,114.15106689999811,l,0.3710918000433594,None,914199,001,2024-11-15_11h36.36.456,delay discounting experiment,2024.1.5,None,2024-11-15 11h36.40.496959 +0530,
11,30,7,12,0,84,0,114.16556119988672,,114.15211119991727,114.16556119988672,115.1653759998735,115.1653759998735,115.1653759998735,115.73371049994603,t,0.5617418999318033,None,914199,001,2024-11-15_11h36.36.456,delay discounting experiment,2024.1.5,None,2024-11-15 11h36.40.496959 +0530,
78,80,162,12,1,85,6,115.74846889986657,,115.73512619989924,115.74846889986657,116.74849169980735,116.74849169980735,116.74849169980735,116.81759869982488,l,0.057291700039058924,None,914199,001,2024-11-15_11h36.36.456,delay discounting experiment,2024.1.5,None,2024-11-15 11h36.40.496959 +0530,
27,50,21,12,2,86,2,116.831874899799,,116.81839569984004,116.831874899799,117.83166559995152,117.83166559995152,117.83166559995152,118.81692919996567,t,0.9724320999812335,None,914199,001,2024-11-15_11h36.36.456,delay discounting experiment,2024.1.5,None,2024-11-15 11h36.40.496959 +0530,
15,35,13,12,3,87,1,118.8313866998069,,118.81776569993235,118.8313866998069,119.83125499985181,119.83125499985181,119.83125499985181,120.49930109991692,l,0.6560875999275595,None,914199,001,2024-11-15_11h36.36.456,delay discounting experiment,2024.1.5,None,2024-11-15 11h36.40.496959 +0530,
67,75,119,12,4,88,5,120.51436189981177,,120.50011129979976,120.51436189981177,121.51481849979609,121.51481849979609,121.51481849979609,121.88290269998834,t,0.3506268998607993,None,914199,001,2024-11-15_11h36.36.456,delay discounting experiment,2024.1.5,None,2024-11-15 11h36.40.496959 +0530,
49,60,89,12,5,89,4,121.89789399993606,,121.88369509996846,121.89789399993606,122.89819569978863,122.89819569978863,122.89819569978863,123.1160438999068,l,0.2122090000193566,None,914199,001,2024-11-15_11h36.36.456,delay discounting experiment,2024.1.5,None,2024-11-15 11h36.40.496959 +0530,
40,55,62,12,6,90,3,123.13076079986058,,123.1168575999327,123.13076079986058,124.1309604998678,124.1309604998678,124.1309604998678,124.59956279979087,t,0.46352129988372326,None,914199,001,2024-11-15_11h36.36.456,delay discounting experiment,2024.1.5,None,2024-11-15 11h36.40.496959 +0530,
27,50,21,13,0,91,2,124.61384409992024,,124.6003443999216,124.61384409992024,125.61389919999056,125.61389919999056,125.61389919999056,126.76486729993485,l,1.1452756999060512,None,914199,001,2024-11-15_11h36.36.456,delay discounting experiment,2024.1.5,None,2024-11-15 11h36.40.496959 +0530,
11,30,7,13,1,92,0,126.78021939983591,,126.76542770001106,126.78021939983591,127.78030369989574,127.78030369989574,127.78030369989574,128.31597499991767,t,0.5315272998996079,None,914199,001,2024-11-15_11h36.36.456,delay discounting experiment,2024.1.5,None,2024-11-15 11h36.40.496959 +0530,
67,75,119,13,2,93,5,128.33049249998294,,128.3167977000121,128.33049249998294,129.33028429979458,129.33028429979458,129.33028429979458,129.6503677999135,l,0.31627389998175204,None,914199,001,2024-11-15_11h36.36.456,delay discounting experiment,2024.1.5,None,2024-11-15 11h36.40.496959 +0530,
15,35,13,13,3,94,1,129.66347779985517,,129.65127769997343,129.66347779985517,130.66368789994158,130.66368789994158,130.66368789994158,131.2350983999204,t,0.5669086999259889,None,914199,001,2024-11-15_11h36.36.456,delay discounting experiment,2024.1.5,None,2024-11-15 11h36.40.496959 +0530,
40,55,62,13,4,95,3,131.24658159981482,,131.23627389990725,131.24658159981482,132.24659219989553,132.24659219989553,132.24659219989553,132.46503459988162,l,0.2125319999177009,None,914199,001,2024-11-15_11h36.36.456,delay discounting experiment,2024.1.5,None,2024-11-15 11h36.40.496959 +0530,
78,80,162,13,5,96,6,132.47965230001137,,132.4658397999592,132.47965230001137,133.47988029988483,133.47988029988483,133.47988029988483,133.81521879998036,l,0.3290850999765098,None,914199,001,2024-11-15_11h36.36.456,delay discounting experiment,2024.1.5,None,2024-11-15 11h36.40.496959 +0530,
49,60,89,13,6,97,4,133.8294640998356,,133.8159976999741,133.8294640998356,134.82928129984066,134.82928129984066,134.82928129984066,135.14783629984595,t,0.312118100002408,None,914199,001,2024-11-15_11h36.36.456,delay discounting experiment,2024.1.5,None,2024-11-15 11h36.40.496959 +0530,
40,55,62,14,0,98,3,135.16285939980298,,135.14874109998345,135.16285939980298,136.1629910999909,136.1629910999909,136.1629910999909,136.314840399893,l,0.1344840000383556,None,914199,001,2024-11-15_11h36.36.456,delay discounting experiment,2024.1.5,None,2024-11-15 11h36.40.496959 +0530,
49,60,89,14,1,99,4,136.3290309999138,,136.31606989982538,136.3290309999138,137.3291833999101,137.3291833999101,137.3291833999101,137.6167297998909,t,0.2836591999512166,None,914199,001,2024-11-15_11h36.36.456,delay discounting experiment,2024.1.5,None,2024-11-15 11h36.40.496959 +0530,
78,80,162,14,2,100,6,137.62876789993607,,137.61758729978465,137.62876789993607,138.6290000998415,138.6290000998415,138.6290000998415,138.7142687998712,l,0.06873570010066032,None,914199,001,2024-11-15_11h36.36.456,delay discounting experiment,2024.1.5,None,2024-11-15 11h36.40.496959 +0530,
11,30,7,14,3,101,0,138.7286811999511,,138.71514859981835,138.7286811999511,139.72883229982108,139.72883229982108,139.72883229982108,140.0134122997988,t,0.27335520018823445,None,914199,001,2024-11-15_11h36.36.456,delay discounting experiment,2024.1.5,None,2024-11-15 11h36.40.496959 +0530,
15,35,13,14,4,102,1,140.02842250000685,,140.01424559997395,140.02842250000685,141.02876829984598,141.02876829984598,141.02876829984598,141.21426919987425,l,0.1772859999909997,None,914199,001,2024-11-15_11h36.36.456,delay discounting experiment,2024.1.5,None,2024-11-15 11h36.40.496959 +0530,
67,75,119,14,5,103,5,141.22849859995767,,141.21527429996058,141.22849859995767,142.22832809993997,142.22832809993997,142.22832809993997,142.47947179991752,t,0.24410169990733266,None,914199,001,2024-11-15_11h36.36.456,delay discounting experiment,2024.1.5,None,2024-11-15 11h36.40.496959 +0530,
27,50,21,14,6,104,2,142.49483320000581,,142.4800751998555,142.49483320000581,143.4950851998292,143.4950851998292,143.4950851998292,143.8469767998904,l,0.3362273001112044,None,914199,001,2024-11-15_11h36.36.456,delay discounting experiment,2024.1.5,None,2024-11-15 11h36.40.496959 +0530,
